pranksLoop.thisRepN,pranksLoop.thisTrialN,pranksLoop.thisN,pranksLoop.thisIndex,promptLoop.thisRepN,promptLoop.thisTrialN,promptLoop.thisN,promptLoop.thisIndex,randomInt.routineEndVal,infoLetterContinue.numClicks,infoLetterContinue.timesOn,infoLetterContinue.timesOff,infoletter.index,infoletter.itemText,infoletter.type,infoletter.granularity,infoletter.font,infoletter.markerColor,consentBtn.started,consentBtn.stopped,consentBtn.numClicks,consentBtn.timesOn,consentBtn.timesOff,consentform.index,consentform.itemText,consentform.type,consentform.granularity,consentform.font,consentform.markerColor,consentform.response,consentform.rt,instructionsBtn.started,instructionsBtn.stopped,instructionsBtn.numClicks,instructionsBtn.timesOn,instructionsBtn.timesOff,instructionsform.index,instructionsform.itemText,instructionsform.type,instructionsform.granularity,instructionsform.font,instructionsform.markerColor,slider.response,slider.rt,slider.started,slider.stopped,prankVar.routineEndVal,promptVar.routineEndVal,participant,session,date,expName,psychopyVersion,frameRate,
,,,,,,,,2,1,[1.5433656999375671],[1.5433684999588877],0,Information Letter,heading,None,None,None,,,,,,,,,,,,,,,,,,,,,,,,,,,,,,,,001,2022-09-15_18h53.31.140,study,2022.1.4,142.3467281657824,
,,,,,,,,,,,,1,Project Title: It's All Fun and Pranks,description,None,None,None,,,,,,,,,,,,,,,,,,,,,,,,,,,,,,,,001,2022-09-15_18h53.31.140,study,2022.1.4,142.3467281657824,
,,,,,,,,,,,,2,"Faculty Investigator: Dr. Chris Burris, Psychology (St. Jerome's). 519-884-8111x28213 (cburris@uwaterloo.ca)",description,None,None,None,,,,,,,,,,,,,,,,,,,,,,,,,,,,,,,,001,2022-09-15_18h53.31.140,study,2022.1.4,142.3467281657824,
,,,,,,,,,,,,3,"Student Investigator: Maya Karmakar-Johnson, Psychology (mkarmaka@uwaterloo.ca)",description,None,None,None,,,,,,,,,,,,,,,,,,,,,,,,,,,,,,,,001,2022-09-15_18h53.31.140,study,2022.1.4,142.3467281657824,
,,,,,,,,,,,,4,This online research is being conducted as part of the Student Investigator's undergraduate honours thesis. It focuses on how people react to pranking behaviour and factors that affect those reactions.,description,None,None,None,,,,,,,,,,,,,,,,,,,,,,,,,,,,,,,,001,2022-09-15_18h53.31.140,study,2022.1.4,142.3467281657824,
,,,,,,,,,,,,5,"In this study, you will be asked first to read several short accounts of actual pranks and then react to each (for example, how funny you did – or didn't – find that prank to be). You will then be asked to complete two short measures concerning your responses to how other people interact with you – specifically, how important feeling respected and dealing with anger are for you. Finally, we'll ask you to complete a brief demographic questionnaire that asks basic questions such as your age and gender (so that we can accurately summarize the study sample's characteristics in any future reports). After that, you'll be able to learn more about the study's purpose.",description,None,None,None,,,,,,,,,,,,,,,,,,,,,,,,,,,,,,,,001,2022-09-15_18h53.31.140,study,2022.1.4,142.3467281657824,
,,,,,,,,,,,,6,"We expect this study to take no more than 30 minutes of your time. Participation is voluntary. Although no direct benefits to you are anticipated, we hope that you will learn more about the variety of research methods that are employed to test psychological hypotheses. In appreciation for your participation, you will receive 0.5 participation credits toward your applicable Psychology class.",description,None,None,None,,,,,,,,,,,,,,,,,,,,,,,,,,,,,,,,001,2022-09-15_18h53.31.140,study,2022.1.4,142.3467281657824,
,,,,,,,,,,,,7,"The risks associated with participation in the study are expected to be no greater than what you might experience in your day-to-day life. Indeed, reacting to others' embarrassing or awkward experiences, as well as how we deal with how people treat us, are common experiences for many. Having said that, you may choose not to complete any proportion of the study but will still receive your 0.5 participation credit. If you do choose to withdraw from the study before reaching the end, we would ask that you please skip to the end to read the feedback letter. Once you have submitted your responses it is not possible to withdraw your consent to participate, however, as we have no way of knowing which responses are yours.",description,None,None,None,,,,,,,,,,,,,,,,,,,,,,,,,,,,,,,,001,2022-09-15_18h53.31.140,study,2022.1.4,142.3467281657824,
,,,,,,,,,,,,8,"You will be completing the study by an online survey operated by Qualtrics. Qualtrics has implemented technical, administrative, and physical safeguards to protect the information provided via the Services from loss, misuse, and unauthorized access, disclosure, alteration, or destruction. However, no Internet transmission is ever fully secure or error free. University of Waterloo researchers will not collect or use internet protocol (IP) addresses or other information which could link your participation to your computer or electronic device without first informing you.",description,None,None,None,,,,,,,,,,,,,,,,,,,,,,,,,,,,,,,,001,2022-09-15_18h53.31.140,study,2022.1.4,142.3467281657824,
,,,,,,,,,,,,9,"Your identity will be confidential: your questionnaire responses will be identified by a code. You will not be identified by name in any report, publication, or presentation resulting from this study. If you choose to participate your data will be stored for at least 5 years on the password-protected computer on the Faculty Investigator.",description,None,None,None,,,,,,,,,,,,,,,,,,,,,,,,,,,,,,,,001,2022-09-15_18h53.31.140,study,2022.1.4,142.3467281657824,
,,,,,,,,,,,,10,"If you have any questions about the study, either before or after participating, please feel free to contact the Faculty Investigator as shown above.",description,None,None,None,,,,,,,,,,,,,,,,,,,,,,,,,,,,,,,,001,2022-09-15_18h53.31.140,study,2022.1.4,142.3467281657824,
,,,,,,,,,,,,11,"This study has been reviewed and received ethics clearance through a University of Waterloo Research Ethics Board (REB# 44380). If you have questions for the Board, contact the Office of Research Ethics, at 1-519-888-4567 ext. 36005 or reb@uwaterloo.ca",description,None,None,None,,,,,,,,,,,,,,,,,,,,,,,,,,,,,,,,001,2022-09-15_18h53.31.140,study,2022.1.4,142.3467281657824,
,,,,,,,,,,,,,,,,,,38.23460140009411,None,1,[0.7572178000118583],[0.7572200000286102],0,Consent for Participation,heading,None,None,None,,,,,,,,,,,,,,,,,,,,,001,2022-09-15_18h53.31.140,study,2022.1.4,142.3467281657824,
,,,,,,,,,,,,,,,,,,,,,,,1,"By consenting to participate, you are not waiving your legal rights or releasing the investigator(s) or involved institution(s) from their legal and professional responsibilities.",description,None,None,None,,,,,,,,,,,,,,,,,,,,,001,2022-09-15_18h53.31.140,study,2022.1.4,142.3467281657824,
,,,,,,,,,,,,,,,,,,,,,,,2,"I have read the information presented in the information letter about a study being conducted under the supervision of Chris Burris, Department of Psychology, St. Jerome's University (cburris@uwaterloo.ca). I have made this decision based on the information provided. I have had the opportunity to ask any questions related to this study, to receive satisfactory answers to my questions, and any additional details I wanted.",description,None,None,None,,,,,,,,,,,,,,,,,,,,,001,2022-09-15_18h53.31.140,study,2022.1.4,142.3467281657824,
,,,,,,,,,,,,,,,,,,,,,,,3,"As a participant in this online study, I am aware that my identity will remain confidential.",description,None,None,None,,,,,,,,,,,,,,,,,,,,,001,2022-09-15_18h53.31.140,study,2022.1.4,142.3467281657824,
,,,,,,,,,,,,,,,,,,,,,,,4,I am aware that I may withdraw from participating before reaching the end of the study without penalty.,description,None,None,None,,,,,,,,,,,,,,,,,,,,,001,2022-09-15_18h53.31.140,study,2022.1.4,142.3467281657824,
,,,,,,,,,,,,,,,,,,,,,,,5,"This study has been reviewed and received ethics clearance through a University of Waterloo Research Ethics Committee (REB# 44380). If you have questions for the Committee, contact the Office of Research Ethics at 1-519-888-4567 ext. 36005 or ore-ceo@uwaterloo.ca",description,None,None,None,,,,,,,,,,,,,,,,,,,,,001,2022-09-15_18h53.31.140,study,2022.1.4,142.3467281657824,
,,,,,,,,,,,,,,,,,,,,,,,6,"If you have any questions about the study, either before or after participating, please feel free to contact the Faculty Investigator.",description,None,None,None,,,,,,,,,,,,,,,,,,,,,001,2022-09-15_18h53.31.140,study,2022.1.4,142.3467281657824,
,,,,,,,,,,,,,,,,,,,,,,,7,I agree to participate in this study:,choice,None,None,None,0.0,1.3838374000042677,,,,,,,,,,,,,,,,,,,001,2022-09-15_18h53.31.140,study,2022.1.4,142.3467281657824,
,,,,,,,,,,,,,,,,,,,,,,,,,,,,,,,39.95542450004723,None,1,[0.5570494000567123],[0.5570516000734642],0,Instructions,heading,None,None,None,,,,,,,,001,2022-09-15_18h53.31.140,study,2022.1.4,142.3467281657824,
,,,,,,,,,,,,,,,,,,,,,,,,,,,,,,,,,,,,1,"Imagine that there exists a part deep within you that you could call the "hidden observer." This part of you knows every detail of all behaviour and thought processes that go on within you and is aware of the deepest intimate information about yourself. However, it cannot be asked to talk about this intimate information unless it is allowed by you to do so.",description,None,None,None,,,,,,,,001,2022-09-15_18h53.31.140,study,2022.1.4,142.3467281657824,
,,,,,,,,,,,,,,,,,,,,,,,,,,,,,,,,,,,,2,Five brief descriptions of prank experiences from the target's perspective (taken from the website fmylife.com) appear below. Please read each one and - from the perspective of your "hidden observer" - rate your reactions to it.,description,None,None,None,,,,,,,,001,2022-09-15_18h53.31.140,study,2022.1.4,142.3467281657824,
0,0,0,0,0,0,0,0,,,,,,,,,,,,,,,,,,,,,,,,,,,,,,,,,,,8.0,0.8348538000136614,42.538356400094926,None,""Today my girlfriend decided it would be hilarious if she pulled a prank on me, so she did the classic ‘bucket of water on a door’ one. I ended up getting stitches and a concussion on my birthday." (3 July 2012)",I think that what happened was funny.,,001,2022-09-15_18h53.31.140,study,2022.1.4,142.3467281657824,
0,0,0,0,1,0,1,0,,,,,,,,,,,,,,,,,,,,,,,,,,,,,,,,,,,8.0,0.3137811999768019,43.364930400042795,None,""Today my girlfriend decided it would be hilarious if she pulled a prank on me, so she did the classic ‘bucket of water on a door’ one. I ended up getting stitches and a concussion on my birthday." (3 July 2012)",I definitely wouldn’t have fallen for that prank.,,001,2022-09-15_18h53.31.140,study,2022.1.4,142.3467281657824,
0,0,0,0,2,0,2,0,,,,,,,,,,,,,,,,,,,,,,,,,,,,,,,,,,,8.0,0.16064859996549785,43.69433110009413,None,""Today my girlfriend decided it would be hilarious if she pulled a prank on me, so she did the classic ‘bucket of water on a door’ one. I ended up getting stitches and a concussion on my birthday." (3 July 2012)",I feel bad for the target of the prank.,,001,2022-09-15_18h53.31.140,study,2022.1.4,142.3467281657824,
0,0,0,0,3,0,3,0,,,,,,,,,,,,,,,,,,,,,,,,,,,,,,,,,,,8.0,0.1419597000349313,43.87025560007896,None,""Today my girlfriend decided it would be hilarious if she pulled a prank on me, so she did the classic ‘bucket of water on a door’ one. I ended up getting stitches and a concussion on my birthday." (3 July 2012)",I wish I could have been there to see that!,,001,2022-09-15_18h53.31.140,study,2022.1.4,142.3467281657824,
0,0,0,0,4,0,4,0,,,,,,,,,,,,,,,,,,,,,,,,,,,,,,,,,,,8.0,0.13002000004053116,44.027800900046714,None,""Today my girlfriend decided it would be hilarious if she pulled a prank on me, so she did the classic ‘bucket of water on a door’ one. I ended up getting stitches and a concussion on my birthday." (3 July 2012)",The target just needs to move on – why do they need to tell the world about it?!,,001,2022-09-15_18h53.31.140,study,2022.1.4,142.3467281657824,
0,0,0,0,5,0,5,0,,,,,,,,,,,,,,,,,,,,,,,,,,,,,,,,,,,8.0,0.13714769994840026,44.17452820006292,None,""Today my girlfriend decided it would be hilarious if she pulled a prank on me, so she did the classic ‘bucket of water on a door’ one. I ended up getting stitches and a concussion on my birthday." (3 July 2012)",I think that the prank went WAY too far.,,001,2022-09-15_18h53.31.140,study,2022.1.4,142.3467281657824,
0,0,0,0,,,,,,,,,,,,,,,,,,,,,,,,,,,,,,,,,,,,,,,,,,,,,,001,2022-09-15_18h53.31.140,study,2022.1.4,142.3467281657824,
1,0,1,0,0,0,0,0,,,,,,,,,,,,,,,,,,,,,,,,,,,,,,,,,,,8.0,0.28820720000658184,46.342144199996255,None,""Today, my friends got me a cake for my birthday. As I blew out the candles, they shoved my head into it and I was knocked out for 3 minutes before an ambulance took me to the hospital. I got a concussion from a cake." (8 September 2017)",I think that what happened was funny.,,001,2022-09-15_18h53.31.140,study,2022.1.4,142.3467281657824,
1,0,1,0,1,0,1,0,,,,,,,,,,,,,,,,,,,,,,,,,,,,,,,,,,,8.0,0.13955239998176694,46.63516539998818,None,""Today, my friends got me a cake for my birthday. As I blew out the candles, they shoved my head into it and I was knocked out for 3 minutes before an ambulance took me to the hospital. I got a concussion from a cake." (8 September 2017)",I definitely wouldn’t have fallen for that prank.,,001,2022-09-15_18h53.31.140,study,2022.1.4,142.3467281657824,
1,0,1,0,2,0,2,0,,,,,,,,,,,,,,,,,,,,,,,,,,,,,,,,,,,8.0,0.12541049998253584,46.79014240007382,None,""Today, my friends got me a cake for my birthday. As I blew out the candles, they shoved my head into it and I was knocked out for 3 minutes before an ambulance took me to the hospital. I got a concussion from a cake." (8 September 2017)",I feel bad for the target of the prank.,,001,2022-09-15_18h53.31.140,study,2022.1.4,142.3467281657824,
1,0,1,0,3,0,3,0,,,,,,,,,,,,,,,,,,,,,,,,,,,,,,,,,,,8.0,0.13603080005850643,46.931346200057305,None,""Today, my friends got me a cake for my birthday. As I blew out the candles, they shoved my head into it and I was knocked out for 3 minutes before an ambulance took me to the hospital. I got a concussion from a cake." (8 September 2017)",I wish I could have been there to see that!,,001,2022-09-15_18h53.31.140,study,2022.1.4,142.3467281657824,
1,0,1,0,4,0,4,0,,,,,,,,,,,,,,,,,,,,,,,,,,,,,,,,,,,8.0,0.12368190009146929,47.082897300017066,None,""Today, my friends got me a cake for my birthday. As I blew out the candles, they shoved my head into it and I was knocked out for 3 minutes before an ambulance took me to the hospital. I got a concussion from a cake." (8 September 2017)",The target just needs to move on – why do they need to tell the world about it?!,,001,2022-09-15_18h53.31.140,study,2022.1.4,142.3467281657824,
1,0,1,0,5,0,5,0,,,,,,,,,,,,,,,,,,,,,,,,,,,,,,,,,,,8.0,0.13519950001500547,47.22211030009203,None,""Today, my friends got me a cake for my birthday. As I blew out the candles, they shoved my head into it and I was knocked out for 3 minutes before an ambulance took me to the hospital. I got a concussion from a cake." (8 September 2017)",I think that the prank went WAY too far.,,001,2022-09-15_18h53.31.140,study,2022.1.4,142.3467281657824,
1,0,1,0,,,,,,,,,,,,,,,,,,,,,,,,,,,,,,,,,,,,,,,,,,,,,,001,2022-09-15_18h53.31.140,study,2022.1.4,142.3467281657824,
2,0,2,0,0,0,0,0,,,,,,,,,,,,,,,,,,,,,,,,,,,,,,,,,,,8.0,0.30681039998307824,49.38399580004625,None,""Today, my friends decided to pull a prank. They told my girlfriend I had cheated on her, which I hadn’t. Her revenge? Inviting me over to have me walk in on her with my brother. Our 6-month anniversary was two days away and I got her a trip to Spain, which cost me almost three paychecks." (19 December 2018)",I think that what happened was funny.,,001,2022-09-15_18h53.31.140,study,2022.1.4,142.3467281657824,
2,0,2,0,1,0,1,0,,,,,,,,,,,,,,,,,,,,,,,,,,,,,,,,,,,8.0,0.11927560006733984,49.69533480005339,None,""Today, my friends decided to pull a prank. They told my girlfriend I had cheated on her, which I hadn’t. Her revenge? Inviting me over to have me walk in on her with my brother. Our 6-month anniversary was two days away and I got her a trip to Spain, which cost me almost three paychecks." (19 December 2018)",I definitely wouldn’t have fallen for that prank.,,001,2022-09-15_18h53.31.140,study,2022.1.4,142.3467281657824,
2,0,2,0,2,0,2,0,,,,,,,,,,,,,,,,,,,,,,,,,,,,,,,,,,,8.0,0.1352375999558717,49.83081790001597,None,""Today, my friends decided to pull a prank. They told my girlfriend I had cheated on her, which I hadn’t. Her revenge? Inviting me over to have me walk in on her with my brother. Our 6-month anniversary was two days away and I got her a trip to Spain, which cost me almost three paychecks." (19 December 2018)",I feel bad for the target of the prank.,,001,2022-09-15_18h53.31.140,study,2022.1.4,142.3467281657824,
2,0,2,0,3,0,3,0,,,,,,,,,,,,,,,,,,,,,,,,,,,,,,,,,,,8.0,0.12518429988995194,49.98075900005642,None,""Today, my friends decided to pull a prank. They told my girlfriend I had cheated on her, which I hadn’t. Her revenge? Inviting me over to have me walk in on her with my brother. Our 6-month anniversary was two days away and I got her a trip to Spain, which cost me almost three paychecks." (19 December 2018)",I wish I could have been there to see that!,,001,2022-09-15_18h53.31.140,study,2022.1.4,142.3467281657824,
2,0,2,0,4,0,4,0,,,,,,,,,,,,,,,,,,,,,,,,,,,,,,,,,,,8.0,0.1345935999415815,50.121495800092816,None,""Today, my friends decided to pull a prank. They told my girlfriend I had cheated on her, which I hadn’t. Her revenge? Inviting me over to have me walk in on her with my brother. Our 6-month anniversary was two days away and I got her a trip to Spain, which cost me almost three paychecks." (19 December 2018)",The target just needs to move on – why do they need to tell the world about it?!,,001,2022-09-15_18h53.31.140,study,2022.1.4,142.3467281657824,
2,0,2,0,5,0,5,0,,,,,,,,,,,,,,,,,,,,,,,,,,,,,,,,,,,8.0,0.12482469994574785,50.27172710001469,None,""Today, my friends decided to pull a prank. They told my girlfriend I had cheated on her, which I hadn’t. Her revenge? Inviting me over to have me walk in on her with my brother. Our 6-month anniversary was two days away and I got her a trip to Spain, which cost me almost three paychecks." (19 December 2018)",I think that the prank went WAY too far.,,001,2022-09-15_18h53.31.140,study,2022.1.4,142.3467281657824,
2,0,2,0,,,,,,,,,,,,,,,,,,,,,,,,,,,,,,,,,,,,,,,,,,,,,,001,2022-09-15_18h53.31.140,study,2022.1.4,142.3467281657824,
3,0,3,0,0,0,0,0,,,,,,,,,,,,,,,,,,,,,,,,,,,,,,,,,,,8.0,0.3079078000737354,52.427334400010295,None,""Today, while I was sleeping, my girlfriend took my phone and set the ringtone to a blood-curdling scream. I found this out when I received a call while driving to work and, thinking someone was being murdered in my backseat, I panicked and swerved into a parked car." (1 June 2011)",I think that what happened was funny.,,001,2022-09-15_18h53.31.140,study,2022.1.4,142.3467281657824,
3,0,3,0,1,0,1,0,,,,,,,,,,,,,,,,,,,,,,,,,,,,,,,,,,,8.0,0.14138210006058216,52.74043080001138,None,""Today, while I was sleeping, my girlfriend took my phone and set the ringtone to a blood-curdling scream. I found this out when I received a call while driving to work and, thinking someone was being murdered in my backseat, I panicked and swerved into a parked car." (1 June 2011)",I definitely wouldn’t have fallen for that prank.,,001,2022-09-15_18h53.31.140,study,2022.1.4,142.3467281657824,
3,0,3,0,2,0,2,0,,,,,,,,,,,,,,,,,,,,,,,,,,,,,,,,,,,8.0,0.12321200000587851,52.89695660001598,None,""Today, while I was sleeping, my girlfriend took my phone and set the ringtone to a blood-curdling scream. I found this out when I received a call while driving to work and, thinking someone was being murdered in my backseat, I panicked and swerved into a parked car." (1 June 2011)",I feel bad for the target of the prank.,,001,2022-09-15_18h53.31.140,study,2022.1.4,142.3467281657824,
3,0,3,0,3,0,3,0,,,,,,,,,,,,,,,,,,,,,,,,,,,,,,,,,,,8.0,0.1328068000730127,53.03563709999435,None,""Today, while I was sleeping, my girlfriend took my phone and set the ringtone to a blood-curdling scream. I found this out when I received a call while driving to work and, thinking someone was being murdered in my backseat, I panicked and swerved into a parked car." (1 June 2011)",I wish I could have been there to see that!,,001,2022-09-15_18h53.31.140,study,2022.1.4,142.3467281657824,
3,0,3,0,4,0,4,0,,,,,,,,,,,,,,,,,,,,,,,,,,,,,,,,,,,8.0,0.12233929999638349,53.18402020004578,None,""Today, while I was sleeping, my girlfriend took my phone and set the ringtone to a blood-curdling scream. I found this out when I received a call while driving to work and, thinking someone was being murdered in my backseat, I panicked and swerved into a parked car." (1 June 2011)",The target just needs to move on – why do they need to tell the world about it?!,,001,2022-09-15_18h53.31.140,study,2022.1.4,142.3467281657824,
3,0,3,0,5,0,5,0,,,,,,,,,,,,,,,,,,,,,,,,,,,,,,,,,,,8.0,0.13565149996429682,53.32196249999106,None,""Today, while I was sleeping, my girlfriend took my phone and set the ringtone to a blood-curdling scream. I found this out when I received a call while driving to work and, thinking someone was being murdered in my backseat, I panicked and swerved into a parked car." (1 June 2011)",I think that the prank went WAY too far.,,001,2022-09-15_18h53.31.140,study,2022.1.4,142.3467281657824,
3,0,3,0,,,,,,,,,,,,,,,,,,,,,,,,,,,,,,,,,,,,,,,,,,,,,,001,2022-09-15_18h53.31.140,study,2022.1.4,142.3467281657824,
4,0,4,0,0,0,0,0,,,,,,,,,,,,,,,,,,,,,,,,,,,,,,,,,,,8.0,0.4251718999585137,55.4882779000327,None,""Today, my sister called me at work and told me our elderly mom had passed away. I dropped everything and rushed home, to find out she was fine, and that my sister was just pranking me. When I explained this to my boss, he accused me of lying to get out of work, and I was fired." (6 July 2021)",I think that what happened was funny.,,001,2022-09-15_18h53.31.140,study,2022.1.4,142.3467281657824,
4,0,4,0,1,0,1,0,,,,,,,,,,,,,,,,,,,,,,,,,,,,,,,,,,,8.0,0.13891590002458543,55.9182143000653,None,""Today, my sister called me at work and told me our elderly mom had passed away. I dropped everything and rushed home, to find out she was fine, and that my sister was just pranking me. When I explained this to my boss, he accused me of lying to get out of work, and I was fired." (6 July 2021)",I definitely wouldn’t have fallen for that prank.,,001,2022-09-15_18h53.31.140,study,2022.1.4,142.3467281657824,
4,0,4,0,2,0,2,0,,,,,,,,,,,,,,,,,,,,,,,,,,,,,,,,,,,8.0,0.1352209000615403,56.07241480005905,None,""Today, my sister called me at work and told me our elderly mom had passed away. I dropped everything and rushed home, to find out she was fine, and that my sister was just pranking me. When I explained this to my boss, he accused me of lying to get out of work, and I was fired." (6 July 2021)",I feel bad for the target of the prank.,,001,2022-09-15_18h53.31.140,study,2022.1.4,142.3467281657824,
4,0,4,0,3,0,3,0,,,,,,,,,,,,,,,,,,,,,,,,,,,,,,,,,,,8.0,0.1355557000497356,56.223153900005855,None,""Today, my sister called me at work and told me our elderly mom had passed away. I dropped everything and rushed home, to find out she was fine, and that my sister was just pranking me. When I explained this to my boss, he accused me of lying to get out of work, and I was fired." (6 July 2021)",I wish I could have been there to see that!,,001,2022-09-15_18h53.31.140,study,2022.1.4,142.3467281657824,
4,0,4,0,4,0,4,0,,,,,,,,,,,,,,,,,,,,,,,,,,,,,,,,,,,8.0,0.13898549997247756,56.37432850000914,None,""Today, my sister called me at work and told me our elderly mom had passed away. I dropped everything and rushed home, to find out she was fine, and that my sister was just pranking me. When I explained this to my boss, he accused me of lying to get out of work, and I was fired." (6 July 2021)",The target just needs to move on – why do they need to tell the world about it?!,,001,2022-09-15_18h53.31.140,study,2022.1.4,142.3467281657824,
4,0,4,0,5,0,5,0,,,,,,,,,,,,,,,,,,,,,,,,,,,,,,,,,,,8.0,0.13768000004347414,56.528725799988024,None,""Today, my sister called me at work and told me our elderly mom had passed away. I dropped everything and rushed home, to find out she was fine, and that my sister was just pranking me. When I explained this to my boss, he accused me of lying to get out of work, and I was fired." (6 July 2021)",I think that the prank went WAY too far.,,001,2022-09-15_18h53.31.140,study,2022.1.4,142.3467281657824,
4,0,4,0,,,,,,,,,,,,,,,,,,,,,,,,,,,,,,,,,,,,,,,,,,,,,,001,2022-09-15_18h53.31.140,study,2022.1.4,142.3467281657824,
